#  E (eV)   dos(E)     Int dos(E) EFermi =    6.648 eV
   0.000  0.0000E+00  0.3200E+03
   0.010  0.0000E+00  0.3200E+03
   0.020  0.0000E+00  0.3200E+03
   0.030  0.0000E+00  0.3200E+03
   0.040  0.0000E+00  0.3200E+03
   0.050  0.0000E+00  0.3200E+03
   0.060  0.0000E+00  0.3200E+03
   0.070  0.0000E+00  0.3200E+03
   0.080  0.0000E+00  0.3200E+03
   0.090  0.0000E+00  0.3200E+03
   0.100  0.0000E+00  0.3200E+03
   0.110  0.0000E+00  0.3200E+03
   0.120  0.0000E+00  0.3200E+03
   0.130  0.0000E+00  0.3200E+03
   0.140  0.0000E+00  0.3200E+03
   0.150  0.0000E+00  0.3200E+03
   0.160  0.0000E+00  0.3200E+03
   0.170  0.0000E+00  0.3200E+03
   0.180  0.0000E+00  0.3200E+03
   0.190  0.0000E+00  0.3200E+03
   0.200  0.0000E+00  0.3200E+03
   0.210  0.0000E+00  0.3200E+03
   0.220  0.0000E+00  0.3200E+03
   0.230  0.0000E+00  0.3200E+03
   0.240  0.0000E+00  0.3200E+03
   0.250  0.0000E+00  0.3200E+03
   0.260  0.0000E+00  0.3200E+03
   0.270  0.0000E+00  0.3200E+03
   0.280  0.0000E+00  0.3200E+03
   0.290  0.0000E+00  0.3200E+03
   0.300  0.0000E+00  0.3200E+03
   0.310  0.0000E+00  0.3200E+03
   0.320  0.0000E+00  0.3200E+03
   0.330  0.0000E+00  0.3200E+03
   0.340  0.0000E+00  0.3200E+03
   0.350  0.0000E+00  0.3200E+03
   0.360  0.0000E+00  0.3200E+03
   0.370  0.0000E+00  0.3200E+03
   0.380  0.0000E+00  0.3200E+03
   0.390  0.0000E+00  0.3200E+03
   0.400  0.0000E+00  0.3200E+03
   0.410  0.0000E+00  0.3200E+03
   0.420  0.0000E+00  0.3200E+03
   0.430  0.0000E+00  0.3200E+03
   0.440  0.0000E+00  0.3200E+03
   0.450  0.0000E+00  0.3200E+03
   0.460  0.0000E+00  0.3200E+03
   0.470  0.0000E+00  0.3200E+03
   0.480  0.0000E+00  0.3200E+03
   0.490  0.0000E+00  0.3200E+03
   0.500  0.0000E+00  0.3200E+03
   0.510  0.0000E+00  0.3200E+03
   0.520  0.0000E+00  0.3200E+03
   0.530  0.0000E+00  0.3200E+03
   0.540  0.0000E+00  0.3200E+03
   0.550  0.0000E+00  0.3200E+03
   0.560  0.0000E+00  0.3200E+03
   0.570  0.0000E+00  0.3200E+03
   0.580  0.0000E+00  0.3200E+03
   0.590  0.0000E+00  0.3200E+03
   0.600  0.0000E+00  0.3200E+03
   0.610  0.0000E+00  0.3200E+03
   0.620  0.0000E+00  0.3200E+03
   0.630  0.0000E+00  0.3200E+03
   0.640  0.0000E+00  0.3200E+03
   0.650  0.0000E+00  0.3200E+03
   0.660  0.0000E+00  0.3200E+03
   0.670  0.0000E+00  0.3200E+03
   0.680  0.0000E+00  0.3200E+03
   0.690  0.0000E+00  0.3200E+03
   0.700  0.0000E+00  0.3200E+03
   0.710  0.0000E+00  0.3200E+03
   0.720  0.0000E+00  0.3200E+03
   0.730  0.0000E+00  0.3200E+03
   0.740  0.0000E+00  0.3200E+03
   0.750  0.0000E+00  0.3200E+03
   0.760  0.0000E+00  0.3200E+03
   0.770  0.0000E+00  0.3200E+03
   0.780  0.0000E+00  0.3200E+03
   0.790  0.0000E+00  0.3200E+03
   0.800  0.0000E+00  0.3200E+03
   0.810  0.0000E+00  0.3200E+03
   0.820  0.0000E+00  0.3200E+03
   0.830  0.0000E+00  0.3200E+03
   0.840  0.0000E+00  0.3200E+03
   0.850  0.0000E+00  0.3200E+03
   0.860  0.0000E+00  0.3200E+03
   0.870  0.0000E+00  0.3200E+03
   0.880  0.0000E+00  0.3200E+03
   0.890  0.0000E+00  0.3200E+03
   0.900  0.0000E+00  0.3200E+03
   0.910  0.0000E+00  0.3200E+03
   0.920  0.0000E+00  0.3200E+03
   0.930  0.0000E+00  0.3200E+03
   0.940  0.0000E+00  0.3200E+03
   0.950  0.0000E+00  0.3200E+03
   0.960  0.0000E+00  0.3200E+03
   0.970  0.0000E+00  0.3200E+03
   0.980  0.0000E+00  0.3200E+03
   0.990  0.0000E+00  0.3200E+03
   1.000  0.0000E+00  0.3200E+03
   1.010  0.0000E+00  0.3200E+03
   1.020  0.0000E+00  0.3200E+03
   1.030  0.0000E+00  0.3200E+03
   1.040  0.0000E+00  0.3200E+03
   1.050  0.0000E+00  0.3200E+03
   1.060  0.0000E+00  0.3200E+03
   1.070  0.0000E+00  0.3200E+03
   1.080  0.0000E+00  0.3200E+03
   1.090  0.0000E+00  0.3200E+03
   1.100  0.0000E+00  0.3200E+03
   1.110  0.0000E+00  0.3200E+03
   1.120  0.0000E+00  0.3200E+03
   1.130  0.0000E+00  0.3200E+03
   1.140  0.0000E+00  0.3200E+03
   1.150  0.0000E+00  0.3200E+03
   1.160  0.0000E+00  0.3200E+03
   1.170  0.0000E+00  0.3200E+03
   1.180  0.0000E+00  0.3200E+03
   1.190  0.0000E+00  0.3200E+03
   1.200  0.0000E+00  0.3200E+03
   1.210  0.0000E+00  0.3200E+03
   1.220  0.0000E+00  0.3200E+03
   1.230  0.0000E+00  0.3200E+03
   1.240  0.0000E+00  0.3200E+03
   1.250  0.0000E+00  0.3200E+03
   1.260  0.0000E+00  0.3200E+03
   1.270  0.0000E+00  0.3200E+03
   1.280  0.1392E+01  0.3200E+03
   1.290  0.1665E+01  0.3200E+03
   1.300  0.1939E+01  0.3201E+03
   1.310  0.1746E+01  0.3201E+03
   1.320  0.1633E+01  0.3201E+03
   1.330  0.1633E+01  0.3201E+03
   1.340  0.1678E+01  0.3201E+03
   1.350  0.1735E+01  0.3201E+03
   1.360  0.1798E+01  0.3202E+03
   1.370  0.1864E+01  0.3202E+03
   1.380  0.1775E+01  0.3202E+03
   1.390  0.1707E+01  0.3202E+03
   1.400  0.1697E+01  0.3202E+03
   1.410  0.1713E+01  0.3202E+03
   1.420  0.1728E+01  0.3203E+03
   1.430  0.1740E+01  0.3203E+03
   1.440  0.1768E+01  0.3203E+03
   1.450  0.3110E+01  0.3203E+03
   1.460  0.3412E+01  0.3204E+03
   1.470  0.3716E+01  0.3204E+03
   1.480  0.3714E+01  0.3204E+03
   1.490  0.3419E+01  0.3205E+03
   1.500  0.3418E+01  0.3205E+03
   1.510  0.3457E+01  0.3205E+03
   1.520  0.3527E+01  0.3206E+03
   1.530  0.3598E+01  0.3206E+03
   1.540  0.3677E+01  0.3206E+03
   1.550  0.3653E+01  0.3207E+03
   1.560  0.3592E+01  0.3207E+03
   1.570  0.3600E+01  0.3208E+03
   1.580  0.3642E+01  0.3208E+03
   1.590  0.3684E+01  0.3208E+03
   1.600  0.3726E+01  0.3209E+03
   1.610  0.3762E+01  0.3209E+03
   1.620  0.3783E+01  0.3209E+03
   1.630  0.3840E+01  0.3210E+03
   1.640  0.3905E+01  0.3210E+03
   1.650  0.3920E+01  0.3211E+03
   1.660  0.3923E+01  0.3211E+03
   1.670  0.3995E+01  0.3211E+03
   1.680  0.4079E+01  0.3212E+03
   1.690  0.4173E+01  0.3212E+03
   1.700  0.4266E+01  0.3213E+03
   1.710  0.4440E+01  0.3213E+03
   1.720  0.5483E+01  0.3214E+03
   1.730  0.4623E+01  0.3214E+03
   1.740  0.4849E+01  0.3215E+03
   1.750  0.3950E+01  0.3215E+03
   1.760  0.3883E+01  0.3215E+03
   1.770  0.3771E+01  0.3216E+03
   1.780  0.3453E+01  0.3216E+03
   1.790  0.3471E+01  0.3216E+03
   1.800  0.3494E+01  0.3217E+03
   1.810  0.3518E+01  0.3217E+03
   1.820  0.3542E+01  0.3218E+03
   1.830  0.3589E+01  0.3218E+03
   1.840  0.3642E+01  0.3218E+03
   1.850  0.3697E+01  0.3219E+03
   1.860  0.4731E+01  0.3219E+03
   1.870  0.6891E+01  0.3220E+03
   1.880  0.3683E+01  0.3220E+03
   1.890  0.3961E+01  0.3221E+03
   1.900  0.2947E+01  0.3221E+03
   1.910  0.2789E+01  0.3221E+03
   1.920  0.2632E+01  0.3221E+03
   1.930  0.2454E+01  0.3222E+03
   1.940  0.2170E+01  0.3222E+03
   1.950  0.2139E+01  0.3222E+03
   1.960  0.2109E+01  0.3222E+03
   1.970  0.2079E+01  0.3223E+03
   1.980  0.2048E+01  0.3223E+03
   1.990  0.2016E+01  0.3223E+03
   2.000  0.1979E+01  0.3223E+03
   2.010  0.1940E+01  0.3223E+03
   2.020  0.1811E+01  0.3224E+03
   2.030  0.1790E+01  0.3224E+03
   2.040  0.2160E+01  0.3224E+03
   2.050  0.2300E+01  0.3224E+03
   2.060  0.2441E+01  0.3224E+03
   2.070  0.3194E+01  0.3225E+03
   2.080  0.3955E+01  0.3225E+03
   2.090  0.2744E+01  0.3225E+03
   2.100  0.2558E+01  0.3226E+03
   2.110  0.2585E+01  0.3226E+03
   2.120  0.3021E+01  0.3226E+03
   2.130  0.3417E+01  0.3227E+03
   2.140  0.3813E+01  0.3227E+03
   2.150  0.3795E+01  0.3227E+03
   2.160  0.3296E+01  0.3228E+03
   2.170  0.3055E+01  0.3228E+03
   2.180  0.3045E+01  0.3228E+03
   2.190  0.3036E+01  0.3229E+03
   2.200  0.3026E+01  0.3229E+03
   2.210  0.3021E+01  0.3229E+03
   2.220  0.3052E+01  0.3229E+03
   2.230  0.3070E+01  0.3230E+03
   2.240  0.3041E+01  0.3230E+03
   2.250  0.3090E+01  0.3230E+03
   2.260  0.3140E+01  0.3231E+03
   2.270  0.5246E+01  0.3231E+03
   2.280  0.5777E+01  0.3232E+03
   2.290  0.5926E+01  0.3232E+03
   2.300  0.5586E+01  0.3233E+03
   2.310  0.5653E+01  0.3233E+03
   2.320  0.6076E+01  0.3234E+03
   2.330  0.6213E+01  0.3235E+03
   2.340  0.7088E+01  0.3235E+03
   2.350  0.7308E+01  0.3236E+03
   2.360  0.8246E+01  0.3237E+03
   2.370  0.8951E+01  0.3238E+03
   2.380  0.7177E+01  0.3239E+03
   2.390  0.7090E+01  0.3239E+03
   2.400  0.7099E+01  0.3240E+03
   2.410  0.8988E+01  0.3241E+03
   2.420  0.9476E+01  0.3242E+03
   2.430  0.9553E+01  0.3243E+03
   2.440  0.8856E+01  0.3244E+03
   2.450  0.9060E+01  0.3245E+03
   2.460  0.9545E+01  0.3246E+03
   2.470  0.1008E+02  0.3247E+03
   2.480  0.1087E+02  0.3248E+03
   2.490  0.1182E+02  0.3249E+03
   2.500  0.1021E+02  0.3250E+03
   2.510  0.8014E+01  0.3251E+03
   2.520  0.7926E+01  0.3252E+03
   2.530  0.7961E+01  0.3252E+03
   2.540  0.8038E+01  0.3253E+03
   2.550  0.8101E+01  0.3254E+03
   2.560  0.7800E+01  0.3255E+03
   2.570  0.7289E+01  0.3256E+03
   2.580  0.7083E+01  0.3256E+03
   2.590  0.7061E+01  0.3257E+03
   2.600  0.7049E+01  0.3258E+03
   2.610  0.7149E+01  0.3258E+03
   2.620  0.7085E+01  0.3259E+03
   2.630  0.7017E+01  0.3260E+03
   2.640  0.1170E+02  0.3261E+03
   2.650  0.9880E+01  0.3262E+03
   2.660  0.1014E+02  0.3263E+03
   2.670  0.1078E+02  0.3264E+03
   2.680  0.1114E+02  0.3265E+03
   2.690  0.1183E+02  0.3266E+03
   2.700  0.1162E+02  0.3267E+03
   2.710  0.1142E+02  0.3268E+03
   2.720  0.2728E+02  0.3270E+03
   2.730  0.1339E+02  0.3272E+03
   2.740  0.1278E+02  0.3273E+03
   2.750  0.1213E+02  0.3274E+03
   2.760  0.1243E+02  0.3276E+03
   2.770  0.1270E+02  0.3277E+03
   2.780  0.1226E+02  0.3278E+03
   2.790  0.1197E+02  0.3279E+03
   2.800  0.1137E+02  0.3280E+03
   2.810  0.1090E+02  0.3282E+03
   2.820  0.1035E+02  0.3283E+03
   2.830  0.9849E+01  0.3284E+03
   2.840  0.9788E+01  0.3285E+03
   2.850  0.9695E+01  0.3286E+03
   2.860  0.9654E+01  0.3287E+03
   2.870  0.9648E+01  0.3288E+03
   2.880  0.9655E+01  0.3289E+03
   2.890  0.9662E+01  0.3289E+03
   2.900  0.9746E+01  0.3290E+03
   2.910  0.9740E+01  0.3291E+03
   2.920  0.1086E+02  0.3293E+03
   2.930  0.1156E+02  0.3294E+03
   2.940  0.1189E+02  0.3295E+03
   2.950  0.1351E+02  0.3296E+03
   2.960  0.1445E+02  0.3297E+03
   2.970  0.1185E+02  0.3299E+03
   2.980  0.1068E+02  0.3300E+03
   2.990  0.1034E+02  0.3301E+03
   3.000  0.1022E+02  0.3302E+03
   3.010  0.1029E+02  0.3303E+03
   3.020  0.1048E+02  0.3304E+03
   3.030  0.1054E+02  0.3305E+03
   3.040  0.1045E+02  0.3306E+03
   3.050  0.1137E+02  0.3307E+03
   3.060  0.1111E+02  0.3308E+03
   3.070  0.1125E+02  0.3310E+03
   3.080  0.1134E+02  0.3311E+03
   3.090  0.1128E+02  0.3312E+03
   3.100  0.1112E+02  0.3313E+03
   3.110  0.1083E+02  0.3314E+03
   3.120  0.1049E+02  0.3315E+03
   3.130  0.1071E+02  0.3316E+03
   3.140  0.1133E+02  0.3317E+03
   3.150  0.1230E+02  0.3318E+03
   3.160  0.1164E+02  0.3320E+03
   3.170  0.1151E+02  0.3321E+03
   3.180  0.1106E+02  0.3322E+03
   3.190  0.1021E+02  0.3323E+03
   3.200  0.1004E+02  0.3324E+03
   3.210  0.9968E+01  0.3325E+03
   3.220  0.1000E+02  0.3326E+03
   3.230  0.1006E+02  0.3327E+03
   3.240  0.1164E+02  0.3328E+03
   3.250  0.1101E+02  0.3329E+03
   3.260  0.9925E+01  0.3330E+03
   3.270  0.9619E+01  0.3331E+03
   3.280  0.1048E+02  0.3332E+03
   3.290  0.1059E+02  0.3334E+03
   3.300  0.1143E+02  0.3335E+03
   3.310  0.1080E+02  0.3336E+03
   3.320  0.1023E+02  0.3337E+03
   3.330  0.1039E+02  0.3338E+03
   3.340  0.1071E+02  0.3339E+03
   3.350  0.1102E+02  0.3340E+03
   3.360  0.1104E+02  0.3341E+03
   3.370  0.1104E+02  0.3342E+03
   3.380  0.1115E+02  0.3343E+03
   3.390  0.1106E+02  0.3344E+03
   3.400  0.1093E+02  0.3346E+03
   3.410  0.1119E+02  0.3347E+03
   3.420  0.1153E+02  0.3348E+03
   3.430  0.1182E+02  0.3349E+03
   3.440  0.1234E+02  0.3350E+03
   3.450  0.1425E+02  0.3351E+03
   3.460  0.1731E+02  0.3353E+03
   3.470  0.1431E+02  0.3355E+03
   3.480  0.1418E+02  0.3357E+03
   3.490  0.1413E+02  0.3358E+03
   3.500  0.1355E+02  0.3359E+03
   3.510  0.1310E+02  0.3361E+03
   3.520  0.1285E+02  0.3362E+03
   3.530  0.1256E+02  0.3363E+03
   3.540  0.1241E+02  0.3364E+03
   3.550  0.1245E+02  0.3366E+03
   3.560  0.1234E+02  0.3367E+03
   3.570  0.1270E+02  0.3368E+03
   3.580  0.1363E+02  0.3370E+03
   3.590  0.1282E+02  0.3371E+03
   3.600  0.1281E+02  0.3372E+03
   3.610  0.1281E+02  0.3373E+03
   3.620  0.1276E+02  0.3375E+03
   3.630  0.1374E+02  0.3376E+03
   3.640  0.1385E+02  0.3377E+03
   3.650  0.1464E+02  0.3379E+03
   3.660  0.1567E+02  0.3380E+03
   3.670  0.1620E+02  0.3382E+03
   3.680  0.1542E+02  0.3384E+03
   3.690  0.1499E+02  0.3385E+03
   3.700  0.1470E+02  0.3387E+03
   3.710  0.1458E+02  0.3388E+03
   3.720  0.1550E+02  0.3389E+03
   3.730  0.2012E+02  0.3391E+03
   3.740  0.1316E+02  0.3393E+03
   3.750  0.1321E+02  0.3394E+03
   3.760  0.1325E+02  0.3395E+03
   3.770  0.1317E+02  0.3396E+03
   3.780  0.1330E+02  0.3398E+03
   3.790  0.1291E+02  0.3399E+03
   3.800  0.1225E+02  0.3400E+03
   3.810  0.1201E+02  0.3402E+03
   3.820  0.1178E+02  0.3403E+03
   3.830  0.1156E+02  0.3404E+03
   3.840  0.1141E+02  0.3405E+03
   3.850  0.1134E+02  0.3406E+03
   3.860  0.1128E+02  0.3407E+03
   3.870  0.1256E+02  0.3409E+03
   3.880  0.1263E+02  0.3410E+03
   3.890  0.1936E+02  0.3411E+03
   3.900  0.1575E+02  0.3413E+03
   3.910  0.1251E+02  0.3415E+03
   3.920  0.1193E+02  0.3416E+03
   3.930  0.1161E+02  0.3417E+03
   3.940  0.1143E+02  0.3418E+03
   3.950  0.1127E+02  0.3419E+03
   3.960  0.1116E+02  0.3420E+03
   3.970  0.1197E+02  0.3421E+03
   3.980  0.1267E+02  0.3423E+03
   3.990  0.1338E+02  0.3424E+03
   4.000  0.1367E+02  0.3425E+03
   4.010  0.1473E+02  0.3427E+03
   4.020  0.1226E+02  0.3428E+03
   4.030  0.1193E+02  0.3429E+03
   4.040  0.1181E+02  0.3431E+03
   4.050  0.1168E+02  0.3432E+03
   4.060  0.1161E+02  0.3433E+03
   4.070  0.1140E+02  0.3434E+03
   4.080  0.1139E+02  0.3435E+03
   4.090  0.1119E+02  0.3436E+03
   4.100  0.1096E+02  0.3437E+03
   4.110  0.1092E+02  0.3438E+03
   4.120  0.1120E+02  0.3440E+03
   4.130  0.1135E+02  0.3441E+03
   4.140  0.1156E+02  0.3442E+03
   4.150  0.1180E+02  0.3443E+03
   4.160  0.1211E+02  0.3444E+03
   4.170  0.1229E+02  0.3445E+03
   4.180  0.1180E+02  0.3447E+03
   4.190  0.1161E+02  0.3448E+03
   4.200  0.1163E+02  0.3449E+03
   4.210  0.1154E+02  0.3450E+03
   4.220  0.1182E+02  0.3451E+03
   4.230  0.1312E+02  0.3453E+03
   4.240  0.1394E+02  0.3454E+03
   4.250  0.1877E+02  0.3456E+03
   4.260  0.1436E+02  0.3457E+03
   4.270  0.1388E+02  0.3459E+03
   4.280  0.1369E+02  0.3460E+03
   4.290  0.1346E+02  0.3461E+03
   4.300  0.1310E+02  0.3463E+03
   4.310  0.1259E+02  0.3464E+03
   4.320  0.1259E+02  0.3465E+03
   4.330  0.1257E+02  0.3467E+03
   4.340  0.1253E+02  0.3468E+03
   4.350  0.1342E+02  0.3469E+03
   4.360  0.1362E+02  0.3470E+03
   4.370  0.1376E+02  0.3472E+03
   4.380  0.1384E+02  0.3473E+03
   4.390  0.1393E+02  0.3475E+03
   4.400  0.1226E+02  0.3476E+03
   4.410  0.1168E+02  0.3477E+03
   4.420  0.1151E+02  0.3478E+03
   4.430  0.1159E+02  0.3479E+03
   4.440  0.1256E+02  0.3481E+03
   4.450  0.1188E+02  0.3482E+03
   4.460  0.1126E+02  0.3483E+03
   4.470  0.1095E+02  0.3484E+03
   4.480  0.1094E+02  0.3485E+03
   4.490  0.1213E+02  0.3486E+03
   4.500  0.1325E+02  0.3488E+03
   4.510  0.1294E+02  0.3489E+03
   4.520  0.1271E+02  0.3490E+03
   4.530  0.1212E+02  0.3492E+03
   4.540  0.1188E+02  0.3493E+03
   4.550  0.1199E+02  0.3494E+03
   4.560  0.1223E+02  0.3495E+03
   4.570  0.1232E+02  0.3496E+03
   4.580  0.1231E+02  0.3498E+03
   4.590  0.1373E+02  0.3499E+03
   4.600  0.1415E+02  0.3500E+03
   4.610  0.1502E+02  0.3502E+03
   4.620  0.1627E+02  0.3503E+03
   4.630  0.1442E+02  0.3505E+03
   4.640  0.1437E+02  0.3506E+03
   4.650  0.1453E+02  0.3508E+03
   4.660  0.1537E+02  0.3509E+03
   4.670  0.1517E+02  0.3511E+03
   4.680  0.1500E+02  0.3512E+03
   4.690  0.4735E+02  0.3514E+03
   4.700  0.1499E+02  0.3515E+03
   4.710  0.1391E+02  0.3517E+03
   4.720  0.1392E+02  0.3518E+03
   4.730  0.1343E+02  0.3519E+03
   4.740  0.1306E+02  0.3521E+03
   4.750  0.1581E+02  0.3522E+03
   4.760  0.1275E+02  0.3524E+03
   4.770  0.1201E+02  0.3525E+03
   4.780  0.1174E+02  0.3526E+03
   4.790  0.1151E+02  0.3527E+03
   4.800  0.1130E+02  0.3528E+03
   4.810  0.1107E+02  0.3529E+03
   4.820  0.1046E+02  0.3530E+03
   4.830  0.1045E+02  0.3532E+03
   4.840  0.1041E+02  0.3533E+03
   4.850  0.1033E+02  0.3534E+03
   4.860  0.1031E+02  0.3535E+03
   4.870  0.1019E+02  0.3536E+03
   4.880  0.9989E+01  0.3537E+03
   4.890  0.1012E+02  0.3538E+03
   4.900  0.9723E+01  0.3539E+03
   4.910  0.9696E+01  0.3540E+03
   4.920  0.1008E+02  0.3541E+03
   4.930  0.1045E+02  0.3542E+03
   4.940  0.1088E+02  0.3543E+03
   4.950  0.1144E+02  0.3544E+03
   4.960  0.1145E+02  0.3545E+03
   4.970  0.1144E+02  0.3546E+03
   4.980  0.1193E+02  0.3547E+03
   4.990  0.1635E+02  0.3549E+03
   5.000  0.1961E+02  0.3550E+03
   5.010  0.1793E+02  0.3552E+03
   5.020  0.1894E+02  0.3554E+03
   5.030  0.1639E+02  0.3556E+03
   5.040  0.1550E+02  0.3558E+03
   5.050  0.1443E+02  0.3559E+03
   5.060  0.1475E+02  0.3561E+03
   5.070  0.1179E+02  0.3562E+03
   5.080  0.1128E+02  0.3563E+03
   5.090  0.1077E+02  0.3564E+03
   5.100  0.1110E+02  0.3566E+03
   5.110  0.1129E+02  0.3567E+03
   5.120  0.1112E+02  0.3568E+03
   5.130  0.1123E+02  0.3569E+03
   5.140  0.1451E+02  0.3570E+03
   5.150  0.1928E+02  0.3572E+03
   5.160  0.1800E+02  0.3574E+03
   5.170  0.2308E+02  0.3576E+03
   5.180  0.1690E+02  0.3578E+03
   5.190  0.1189E+02  0.3579E+03
   5.200  0.1172E+02  0.3580E+03
   5.210  0.1178E+02  0.3582E+03
   5.220  0.1272E+02  0.3583E+03
   5.230  0.1377E+02  0.3584E+03
   5.240  0.1076E+02  0.3585E+03
   5.250  0.1068E+02  0.3586E+03
   5.260  0.1075E+02  0.3587E+03
   5.270  0.1287E+02  0.3589E+03
   5.280  0.1357E+02  0.3590E+03
   5.290  0.1524E+02  0.3592E+03
   5.300  0.1491E+02  0.3593E+03
   5.310  0.1446E+02  0.3595E+03
   5.320  0.1553E+02  0.3596E+03
   5.330  0.1646E+02  0.3598E+03
   5.340  0.1466E+02  0.3600E+03
   5.350  0.1328E+02  0.3601E+03
   5.360  0.1236E+02  0.3602E+03
   5.370  0.1215E+02  0.3603E+03
   5.380  0.1112E+02  0.3605E+03
   5.390  0.1073E+02  0.3606E+03
   5.400  0.1090E+02  0.3607E+03
   5.410  0.1095E+02  0.3608E+03
   5.420  0.1104E+02  0.3609E+03
   5.430  0.1122E+02  0.3610E+03
   5.440  0.1001E+02  0.3611E+03
   5.450  0.9508E+01  0.3612E+03
   5.460  0.9174E+01  0.3613E+03
   5.470  0.9174E+01  0.3614E+03
   5.480  0.1187E+02  0.3615E+03
   5.490  0.1138E+02  0.3616E+03
   5.500  0.1147E+02  0.3617E+03
   5.510  0.1317E+02  0.3619E+03
   5.520  0.1446E+02  0.3620E+03
   5.530  0.1493E+02  0.3622E+03
   5.540  0.1734E+02  0.3623E+03
   5.550  0.1537E+02  0.3625E+03
   5.560  0.1217E+02  0.3626E+03
   5.570  0.1219E+02  0.3628E+03
   5.580  0.1117E+02  0.3629E+03
   5.590  0.1160E+02  0.3630E+03
   5.600  0.1205E+02  0.3631E+03
   5.610  0.1579E+02  0.3632E+03
   5.620  0.2219E+02  0.3635E+03
   5.630  0.1337E+02  0.3636E+03
   5.640  0.1112E+02  0.3638E+03
   5.650  0.1061E+02  0.3639E+03
   5.660  0.1081E+02  0.3640E+03
   5.670  0.1051E+02  0.3641E+03
   5.680  0.1164E+02  0.3642E+03
   5.690  0.1215E+02  0.3643E+03
   5.700  0.1211E+02  0.3644E+03
   5.710  0.1021E+02  0.3646E+03
   5.720  0.1086E+02  0.3647E+03
   5.730  0.1322E+02  0.3648E+03
   5.740  0.1415E+02  0.3649E+03
   5.750  0.1356E+02  0.3651E+03
   5.760  0.1374E+02  0.3652E+03
   5.770  0.1439E+02  0.3654E+03
   5.780  0.1583E+02  0.3655E+03
   5.790  0.1272E+02  0.3657E+03
   5.800  0.1172E+02  0.3658E+03
   5.810  0.1013E+02  0.3659E+03
   5.820  0.1123E+02  0.3660E+03
   5.830  0.1284E+02  0.3661E+03
   5.840  0.1476E+02  0.3663E+03
   5.850  0.1271E+02  0.3664E+03
   5.860  0.1466E+02  0.3665E+03
   5.870  0.1648E+02  0.3667E+03
   5.880  0.1909E+02  0.3669E+03
   5.890  0.1933E+02  0.3671E+03
   5.900  0.1696E+02  0.3673E+03
   5.910  0.1338E+02  0.3674E+03
   5.920  0.9581E+01  0.3675E+03
   5.930  0.1106E+02  0.3676E+03
   5.940  0.1236E+02  0.3678E+03
   5.950  0.1138E+02  0.3679E+03
   5.960  0.1184E+02  0.3680E+03
   5.970  0.1050E+02  0.3681E+03
   5.980  0.9732E+01  0.3682E+03
   5.990  0.1097E+02  0.3684E+03
   6.000  0.1197E+02  0.3685E+03
   6.010  0.1382E+02  0.3686E+03
   6.020  0.2023E+02  0.3688E+03
   6.030  0.1755E+02  0.3690E+03
   6.040  0.1867E+02  0.3692E+03
   6.050  0.1482E+02  0.3693E+03
   6.060  0.2006E+02  0.3695E+03
   6.070  0.1744E+02  0.3697E+03
   6.080  0.1337E+02  0.3698E+03
   6.090  0.1327E+02  0.3700E+03
   6.100  0.1295E+02  0.3701E+03
   6.110  0.1497E+02  0.3702E+03
   6.120  0.1686E+02  0.3704E+03
   6.130  0.1636E+02  0.3706E+03
   6.140  0.1669E+02  0.3708E+03
   6.150  0.1369E+02  0.3709E+03
   6.160  0.1711E+02  0.3710E+03
   6.170  0.2709E+02  0.3713E+03
   6.180  0.1543E+02  0.3715E+03
   6.190  0.1477E+02  0.3717E+03
   6.200  0.1497E+02  0.3718E+03
   6.210  0.1426E+02  0.3719E+03
   6.220  0.1386E+02  0.3721E+03
   6.230  0.1802E+02  0.3722E+03
   6.240  0.1497E+02  0.3724E+03
   6.250  0.1770E+02  0.3726E+03
   6.260  0.2847E+02  0.3728E+03
   6.270  0.2272E+02  0.3730E+03
   6.280  0.1794E+02  0.3732E+03
   6.290  0.2083E+02  0.3734E+03
   6.300  0.1352E+02  0.3735E+03
   6.310  0.1336E+02  0.3737E+03
   6.320  0.1319E+02  0.3738E+03
   6.330  0.1589E+02  0.3740E+03
   6.340  0.1914E+02  0.3741E+03
   6.350  0.1532E+02  0.3744E+03
   6.360  0.1041E+02  0.3745E+03
   6.370  0.9587E+01  0.3746E+03
   6.380  0.9520E+01  0.3747E+03
   6.390  0.1008E+02  0.3748E+03
   6.400  0.1420E+02  0.3749E+03
   6.410  0.1597E+02  0.3751E+03
   6.420  0.8685E+01  0.3752E+03
   6.430  0.1565E+02  0.3753E+03
   6.440  0.1152E+02  0.3754E+03
   6.450  0.1049E+02  0.3756E+03
   6.460  0.9598E+01  0.3757E+03
   6.470  0.8712E+01  0.3758E+03
   6.480  0.7701E+01  0.3758E+03
   6.490  0.8214E+01  0.3759E+03
   6.500  0.8317E+01  0.3760E+03
   6.510  0.8605E+01  0.3761E+03
   6.520  0.1957E+02  0.3762E+03
   6.530  0.1380E+02  0.3764E+03
   6.540  0.1585E+02  0.3765E+03
   6.550  0.1626E+02  0.3767E+03
   6.560  0.1612E+02  0.3769E+03
   6.570  0.2000E+02  0.3771E+03
   6.580  0.1449E+02  0.3773E+03
   6.590  0.1122E+02  0.3774E+03
   6.600  0.1116E+02  0.3775E+03
   6.610  0.9274E+01  0.3776E+03
   6.620  0.9133E+01  0.3777E+03
   6.630  0.9095E+01  0.3778E+03
   6.640  0.1069E+02  0.3779E+03
   6.650  0.1131E+02  0.3780E+03
   6.660  0.1127E+02  0.3781E+03
   6.670  0.1150E+02  0.3783E+03
   6.680  0.1069E+02  0.3784E+03
   6.690  0.9676E+01  0.3786E+03
   6.700  0.8471E+01  0.3787E+03
   6.710  0.7853E+01  0.3787E+03
   6.720  0.8480E+01  0.3788E+03
   6.730  0.8018E+01  0.3789E+03
   6.740  0.7043E+01  0.3790E+03
   6.750  0.6124E+01  0.3790E+03
   6.760  0.7477E+01  0.3791E+03
   6.770  0.5933E+01  0.3792E+03
   6.780  0.6022E+01  0.3792E+03
   6.790  0.6598E+01  0.3793E+03
   6.800  0.7297E+01  0.3794E+03
   6.810  0.8186E+01  0.3794E+03
   6.820  0.4949E+01  0.3795E+03
   6.830  0.4857E+01  0.3796E+03
   6.840  0.3714E+01  0.3796E+03
   6.850  0.3809E+01  0.3797E+03
   6.860  0.4142E+01  0.3797E+03
   6.870  0.4657E+01  0.3798E+03
   6.880  0.4395E+01  0.3798E+03
   6.890  0.4052E+01  0.3798E+03
   6.900  0.4530E+01  0.3799E+03
   6.910  0.3087E+01  0.3799E+03
   6.920  0.2460E+01  0.3799E+03
   6.930  0.4143E+01  0.3800E+03
   6.940  0.2464E+00  0.3800E+03
   6.950  0.2069E+00  0.3800E+03
   6.960  0.1675E+00  0.3800E+03
   6.970  0.1280E+00  0.3800E+03
   6.980  0.8855E-01  0.3800E+03
   6.990  0.4909E-01  0.3800E+03
   7.000  0.9636E-02  0.3800E+03
   7.010  0.0000E+00  0.3800E+03
   7.020  0.7154E-04  0.3800E+03
   7.030  0.3223E-01  0.3800E+03
   7.040  0.6443E-01  0.3800E+03
   7.050  0.9663E-01  0.3800E+03
   7.060  0.1288E+00  0.3800E+03
   7.070  0.1610E+00  0.3800E+03
   7.080  0.1932E+00  0.3800E+03
   7.090  0.2254E+00  0.3800E+03
   7.100  0.2349E+00  0.3800E+03
   7.110  0.2595E+00  0.3800E+03
   7.120  0.2842E+00  0.3800E+03
   7.130  0.3089E+00  0.3800E+03
   7.140  0.3335E+00  0.3800E+03
   7.150  0.3582E+00  0.3800E+03
   7.160  0.3829E+00  0.3800E+03
   7.170  0.4075E+00  0.3800E+03
   7.180  0.4322E+00  0.3800E+03
   7.190  0.3586E+00  0.3800E+03
   7.200  0.4334E+00  0.3800E+03
   7.210  0.5081E+00  0.3800E+03
   7.220  0.5829E+00  0.3801E+03
   7.230  0.6577E+00  0.3801E+03
   7.240  0.7325E+00  0.3801E+03
   7.250  0.7873E+00  0.3801E+03
   7.260  0.8696E+00  0.3801E+03
   7.270  0.9012E+00  0.3801E+03
   7.280  0.9329E+00  0.3801E+03
   7.290  0.9645E+00  0.3801E+03
   7.300  0.9962E+00  0.3801E+03
   7.310  0.9878E+00  0.3801E+03
   7.320  0.1512E+01  0.3801E+03
   7.330  0.2052E+01  0.3802E+03
   7.340  0.2164E+01  0.3802E+03
   7.350  0.2253E+01  0.3802E+03
   7.360  0.2343E+01  0.3802E+03
   7.370  0.2434E+01  0.3803E+03
   7.380  0.2542E+01  0.3803E+03
   7.390  0.2660E+01  0.3803E+03
   7.400  0.2772E+01  0.3803E+03
   7.410  0.2884E+01  0.3804E+03
   7.420  0.2754E+01  0.3804E+03
   7.430  0.2642E+01  0.3804E+03
   7.440  0.2771E+01  0.3804E+03
   7.450  0.2962E+01  0.3805E+03
   7.460  0.3217E+01  0.3805E+03
   7.470  0.3546E+01  0.3805E+03
   7.480  0.3722E+01  0.3806E+03
   7.490  0.3645E+01  0.3806E+03
   7.500  0.3581E+01  0.3806E+03
   7.510  0.3523E+01  0.3807E+03
   7.520  0.3476E+01  0.3807E+03
   7.530  0.3438E+01  0.3807E+03
   7.540  0.3416E+01  0.3808E+03
   7.550  0.3374E+01  0.3808E+03
   7.560  0.3357E+01  0.3809E+03
   7.570  0.3418E+01  0.3809E+03
   7.580  0.3478E+01  0.3809E+03
   7.590  0.3567E+01  0.3810E+03
   7.600  0.4027E+01  0.3810E+03
   7.610  0.4358E+01  0.3810E+03
   7.620  0.1081E+02  0.3811E+03
   7.630  0.9981E+01  0.3812E+03
   7.640  0.1844E+02  0.3813E+03
   7.650  0.9997E+01  0.3814E+03
   7.660  0.7019E+01  0.3815E+03
   7.670  0.6777E+01  0.3816E+03
   7.680  0.6564E+01  0.3817E+03
   7.690  0.6311E+01  0.3817E+03
   7.700  0.5995E+01  0.3818E+03
   7.710  0.6048E+01  0.3819E+03
   7.720  0.6337E+01  0.3819E+03
   7.730  0.8686E+01  0.3820E+03
   7.740  0.9347E+01  0.3821E+03
   7.750  0.9256E+01  0.3822E+03
   7.760  0.1288E+02  0.3823E+03
   7.770  0.7844E+01  0.3823E+03
   7.780  0.7474E+01  0.3824E+03
   7.790  0.9276E+01  0.3825E+03
   7.800  0.1015E+02  0.3826E+03
   7.810  0.7620E+01  0.3827E+03
   7.820  0.9771E+01  0.3828E+03
   7.830  0.9476E+01  0.3829E+03
   7.840  0.1053E+02  0.3830E+03
   7.850  0.1433E+02  0.3831E+03
   7.860  0.1131E+02  0.3832E+03
   7.870  0.9134E+01  0.3833E+03
   7.880  0.7254E+01  0.3834E+03
   7.890  0.5952E+01  0.3835E+03
   7.900  0.5514E+01  0.3836E+03
   7.910  0.5069E+01  0.3836E+03
   7.920  0.4647E+01  0.3837E+03
   7.930  0.4270E+01  0.3837E+03
   7.940  0.3902E+01  0.3837E+03
   7.950  0.3528E+01  0.3838E+03
   7.960  0.3539E+01  0.3838E+03
   7.970  0.3850E+01  0.3838E+03
   7.980  0.3734E+01  0.3839E+03
   7.990  0.3814E+01  0.3839E+03
   8.000  0.3723E+01  0.3840E+03
   8.010  0.3506E+01  0.3840E+03
   8.020  0.6080E+01  0.3840E+03
   8.030  0.5192E+01  0.3841E+03
   8.040  0.4066E+01  0.3842E+03
   8.050  0.4183E+01  0.3842E+03
   8.060  0.4300E+01  0.3842E+03
   8.070  0.4410E+01  0.3843E+03
   8.080  0.4604E+01  0.3843E+03
   8.090  0.4818E+01  0.3844E+03
   8.100  0.6560E+01  0.3844E+03
   8.110  0.7209E+01  0.3845E+03
   8.120  0.7332E+01  0.3846E+03
   8.130  0.1299E+02  0.3847E+03
   8.140  0.8985E+01  0.3848E+03
   8.150  0.1021E+02  0.3849E+03
   8.160  0.6569E+01  0.3849E+03
   8.170  0.5627E+01  0.3850E+03
   8.180  0.5329E+01  0.3851E+03
   8.190  0.4734E+01  0.3851E+03
   8.200  0.3677E+01  0.3851E+03
   8.210  0.4220E+01  0.3852E+03
   8.220  0.4814E+01  0.3852E+03
   8.230  0.4401E+01  0.3853E+03
   8.240  0.4203E+01  0.3853E+03
   8.250  0.4240E+01  0.3854E+03
   8.260  0.4415E+01  0.3854E+03
   8.270  0.5021E+01  0.3855E+03
   8.280  0.5628E+01  0.3855E+03
   8.290  0.5788E+01  0.3856E+03
   8.300  0.7827E+01  0.3856E+03
   8.310  0.7608E+01  0.3857E+03
   8.320  0.8001E+01  0.3858E+03
   8.330  0.8147E+01  0.3859E+03
   8.340  0.9528E+01  0.3860E+03
   8.350  0.8374E+01  0.3861E+03
   8.360  0.7544E+01  0.3861E+03
   8.370  0.1767E+02  0.3863E+03
   8.380  0.1090E+02  0.3864E+03
   8.390  0.1031E+02  0.3865E+03
   8.400  0.9844E+01  0.3866E+03
   8.410  0.1261E+02  0.3867E+03
   8.420  0.1017E+02  0.3868E+03
   8.430  0.1175E+02  0.3869E+03
   8.440  0.1038E+02  0.3870E+03
   8.450  0.7784E+01  0.3871E+03
   8.460  0.4805E+01  0.3872E+03
   8.470  0.4582E+01  0.3872E+03
   8.480  0.4801E+01  0.3873E+03
   8.490  0.7617E+01  0.3873E+03
   8.500  0.6592E+01  0.3874E+03
   8.510  0.5775E+01  0.3875E+03
   8.520  0.4505E+01  0.3875E+03
   8.530  0.7605E+01  0.3876E+03
   8.540  0.7273E+01  0.3876E+03
   8.550  0.6984E+01  0.3877E+03
   8.560  0.7018E+01  0.3878E+03
   8.570  0.7943E+01  0.3878E+03
   8.580  0.9919E+01  0.3879E+03
   8.590  0.8769E+01  0.3881E+03
   8.600  0.8785E+01  0.3881E+03
   8.610  0.8962E+01  0.3882E+03
   8.620  0.8900E+01  0.3883E+03
   8.630  0.9055E+01  0.3884E+03
   8.640  0.9137E+01  0.3885E+03
   8.650  0.8263E+01  0.3886E+03
   8.660  0.6186E+01  0.3887E+03
   8.670  0.5849E+01  0.3887E+03
   8.680  0.5597E+01  0.3888E+03
   8.690  0.5175E+01  0.3888E+03
   8.700  0.3949E+01  0.3889E+03
   8.710  0.4086E+01  0.3889E+03
   8.720  0.5003E+01  0.3890E+03
   8.730  0.6641E+01  0.3890E+03
   8.740  0.9526E+01  0.3891E+03
   8.750  0.9642E+01  0.3892E+03
   8.760  0.9540E+01  0.3893E+03
   8.770  0.1077E+02  0.3894E+03
   8.780  0.1177E+02  0.3895E+03
   8.790  0.1234E+02  0.3896E+03
   8.800  0.1468E+02  0.3898E+03
   8.810  0.1255E+02  0.3899E+03
   8.820  0.1250E+02  0.3900E+03
   8.830  0.1183E+02  0.3902E+03
   8.840  0.8481E+01  0.3903E+03
   8.850  0.7782E+01  0.3903E+03
   8.860  0.6807E+01  0.3904E+03
   8.870  0.6948E+01  0.3905E+03
   8.880  0.8047E+01  0.3906E+03
   8.890  0.1154E+02  0.3907E+03
   8.900  0.1212E+02  0.3908E+03
   8.910  0.1770E+02  0.3910E+03
   8.920  0.1319E+02  0.3911E+03
   8.930  0.1040E+02  0.3912E+03
   8.940  0.1124E+02  0.3913E+03
   8.950  0.1160E+02  0.3914E+03
   8.960  0.1056E+02  0.3915E+03
   8.970  0.9506E+01  0.3916E+03
   8.980  0.1017E+02  0.3917E+03
   8.990  0.1016E+02  0.3918E+03
   9.000  0.1371E+02  0.3919E+03
   9.010  0.9166E+01  0.3920E+03
   9.020  0.1022E+02  0.3921E+03
   9.030  0.1147E+02  0.3922E+03
   9.040  0.1090E+02  0.3924E+03
   9.050  0.1145E+02  0.3925E+03
   9.060  0.1044E+02  0.3926E+03
   9.070  0.8684E+01  0.3927E+03
   9.080  0.6980E+01  0.3928E+03
   9.090  0.6241E+01  0.3928E+03
   9.100  0.6564E+01  0.3929E+03
   9.110  0.6806E+01  0.3930E+03
   9.120  0.7378E+01  0.3930E+03
   9.130  0.8471E+01  0.3931E+03
   9.140  0.9517E+01  0.3932E+03
   9.150  0.1022E+02  0.3933E+03
   9.160  0.9100E+01  0.3934E+03
   9.170  0.1118E+02  0.3935E+03
   9.180  0.1041E+02  0.3936E+03
   9.190  0.7856E+01  0.3937E+03
   9.200  0.7023E+01  0.3938E+03
   9.210  0.6513E+01  0.3938E+03
   9.220  0.6771E+01  0.3939E+03
   9.230  0.6879E+01  0.3940E+03
   9.240  0.6943E+01  0.3940E+03
   9.250  0.6980E+01  0.3941E+03
   9.260  0.7131E+01  0.3942E+03
   9.270  0.8641E+01  0.3943E+03
   9.280  0.8212E+01  0.3943E+03
   9.290  0.6439E+01  0.3944E+03
   9.300  0.6550E+01  0.3945E+03
   9.310  0.6786E+01  0.3945E+03
   9.320  0.7088E+01  0.3946E+03
   9.330  0.8266E+01  0.3947E+03
   9.340  0.9132E+01  0.3948E+03
   9.350  0.8856E+01  0.3949E+03
   9.360  0.8984E+01  0.3950E+03
   9.370  0.1370E+02  0.3951E+03
   9.380  0.1038E+02  0.3952E+03
   9.390  0.1020E+02  0.3953E+03
   9.400  0.8058E+01  0.3954E+03
   9.410  0.8303E+01  0.3955E+03
   9.420  0.9354E+01  0.3956E+03
   9.430  0.8833E+01  0.3957E+03
   9.440  0.1034E+02  0.3958E+03
   9.450  0.8844E+01  0.3959E+03
   9.460  0.8473E+01  0.3959E+03
   9.470  0.9458E+01  0.3960E+03
   9.480  0.8357E+01  0.3961E+03
   9.490  0.7678E+01  0.3962E+03
   9.500  0.8339E+01  0.3963E+03
   9.510  0.7242E+01  0.3964E+03
   9.520  0.6043E+01  0.3964E+03
   9.530  0.6036E+01  0.3965E+03
   9.540  0.6222E+01  0.3966E+03
   9.550  0.6842E+01  0.3966E+03
   9.560  0.7518E+01  0.3967E+03
   9.570  0.8060E+01  0.3968E+03
   9.580  0.8608E+01  0.3969E+03
   9.590  0.1323E+02  0.3970E+03
   9.600  0.1140E+02  0.3971E+03
   9.610  0.9509E+01  0.3972E+03
   9.620  0.8623E+01  0.3973E+03
   9.630  0.8662E+01  0.3974E+03
   9.640  0.8241E+01  0.3975E+03
   9.650  0.8211E+01  0.3976E+03
   9.660  0.8151E+01  0.3976E+03
   9.670  0.8235E+01  0.3977E+03
   9.680  0.7542E+01  0.3978E+03
   9.690  0.8337E+01  0.3979E+03
   9.700  0.1046E+02  0.3980E+03
   9.710  0.1142E+02  0.3981E+03
   9.720  0.1114E+02  0.3982E+03
   9.730  0.7871E+01  0.3983E+03
   9.740  0.7186E+01  0.3984E+03
   9.750  0.7047E+01  0.3984E+03
   9.760  0.6263E+01  0.3985E+03
   9.770  0.5332E+01  0.3985E+03
   9.780  0.4700E+01  0.3986E+03
   9.790  0.4684E+01  0.3986E+03
   9.800  0.4672E+01  0.3987E+03
   9.810  0.4662E+01  0.3987E+03
   9.820  0.4962E+01  0.3988E+03
   9.830  0.5490E+01  0.3988E+03
   9.840  0.5231E+01  0.3989E+03
   9.850  0.5922E+01  0.3989E+03
   9.860  0.6735E+01  0.3990E+03
   9.870  0.6701E+01  0.3991E+03
   9.880  0.5741E+01  0.3991E+03
   9.890  0.5484E+01  0.3992E+03
   9.900  0.5465E+01  0.3993E+03
   9.910  0.5681E+01  0.3993E+03
   9.920  0.6309E+01  0.3994E+03
   9.930  0.6577E+01  0.3994E+03
   9.940  0.6572E+01  0.3995E+03
   9.950  0.6961E+01  0.3996E+03
   9.960  0.7161E+01  0.3996E+03
   9.970  0.7380E+01  0.3997E+03
   9.980  0.7683E+01  0.3998E+03
   9.990  0.7767E+01  0.3999E+03
  10.000  0.8233E+01  0.3999E+03
  10.010  0.8556E+01  0.4000E+03
  10.020  0.8972E+01  0.4001E+03
  10.030  0.9489E+01  0.4002E+03
  10.040  0.9757E+01  0.4003E+03
  10.050  0.9996E+01  0.4004E+03
  10.060  0.1131E+02  0.4005E+03
  10.070  0.1224E+02  0.4006E+03
  10.080  0.1387E+02  0.4008E+03
  10.090  0.1467E+02  0.4009E+03
  10.100  0.2203E+02  0.4011E+03
  10.110  0.1084E+02  0.4013E+03
  10.120  0.1105E+02  0.4014E+03
  10.130  0.1359E+02  0.4015E+03
  10.140  0.1483E+02  0.4017E+03
  10.150  0.1400E+02  0.4018E+03
  10.160  0.1340E+02  0.4019E+03
  10.170  0.1374E+02  0.4021E+03
  10.180  0.1640E+02  0.4022E+03
  10.190  0.1863E+02  0.4024E+03
  10.200  0.1682E+02  0.4026E+03
  10.210  0.1684E+02  0.4027E+03
  10.220  0.1805E+02  0.4029E+03
  10.230  0.1745E+02  0.4031E+03
  10.240  0.1971E+02  0.4033E+03
  10.250  0.1574E+02  0.4035E+03
  10.260  0.1467E+02  0.4036E+03
  10.270  0.1435E+02  0.4038E+03
  10.280  0.1335E+02  0.4039E+03
  10.290  0.1346E+02  0.4040E+03
  10.300  0.1389E+02  0.4042E+03
  10.310  0.2075E+02  0.4043E+03
  10.320  0.1230E+02  0.4045E+03
  10.330  0.1175E+02  0.4046E+03
  10.340  0.1170E+02  0.4047E+03
  10.350  0.1246E+02  0.4048E+03
  10.360  0.1235E+02  0.4049E+03
  10.370  0.1232E+02  0.4051E+03
  10.380  0.1370E+02  0.4052E+03
  10.390  0.1783E+02  0.4053E+03
  10.400  0.1974E+02  0.4056E+03
  10.410  0.1784E+02  0.4058E+03
  10.420  0.1480E+02  0.4059E+03
  10.430  0.1308E+02  0.4061E+03
  10.440  0.1311E+02  0.4062E+03
  10.450  0.1560E+02  0.4063E+03
  10.460  0.1799E+02  0.4065E+03
  10.470  0.2269E+02  0.4067E+03
  10.480  0.1985E+02  0.4069E+03
  10.490  0.1591E+02  0.4071E+03
  10.500  0.1412E+02  0.4072E+03
  10.510  0.1286E+02  0.4074E+03
  10.520  0.1304E+02  0.4075E+03
  10.530  0.1185E+02  0.4076E+03
  10.540  0.1178E+02  0.4077E+03
  10.550  0.1275E+02  0.4079E+03
  10.560  0.1232E+02  0.4080E+03
  10.570  0.1300E+02  0.4081E+03
  10.580  0.1407E+02  0.4083E+03
  10.590  0.1726E+02  0.4084E+03
  10.600  0.1530E+02  0.4086E+03
  10.610  0.1368E+02  0.4087E+03
  10.620  0.1307E+02  0.4089E+03
  10.630  0.1273E+02  0.4090E+03
  10.640  0.1381E+02  0.4091E+03
  10.650  0.9951E+01  0.4092E+03
  10.660  0.1028E+02  0.4093E+03
  10.670  0.1078E+02  0.4094E+03
  10.680  0.1164E+02  0.4096E+03
  10.690  0.1244E+02  0.4097E+03
  10.700  0.1281E+02  0.4098E+03
  10.710  0.1228E+02  0.4099E+03
  10.720  0.1310E+02  0.4101E+03
  10.730  0.2142E+02  0.4102E+03
  10.740  0.1249E+02  0.4103E+03
  10.750  0.1313E+02  0.4105E+03
  10.760  0.1348E+02  0.4106E+03
  10.770  0.1337E+02  0.4107E+03
  10.780  0.1189E+02  0.4108E+03
  10.790  0.1125E+02  0.4110E+03
  10.800  0.1112E+02  0.4111E+03
  10.810  0.1113E+02  0.4112E+03
  10.820  0.1109E+02  0.4113E+03
  10.830  0.1154E+02  0.4114E+03
  10.840  0.1327E+02  0.4115E+03
  10.850  0.2356E+02  0.4117E+03
  10.860  0.1644E+02  0.4119E+03
  10.870  0.1541E+02  0.4120E+03
  10.880  0.1278E+02  0.4122E+03
  10.890  0.1467E+02  0.4123E+03
  10.900  0.2094E+02  0.4125E+03
  10.910  0.1598E+02  0.4127E+03
  10.920  0.1218E+02  0.4128E+03
  10.930  0.1022E+02  0.4129E+03
  10.940  0.9235E+01  0.4130E+03
  10.950  0.9242E+01  0.4131E+03
  10.960  0.1219E+02  0.4132E+03
  10.970  0.1507E+02  0.4134E+03
  10.980  0.1160E+02  0.4135E+03
  10.990  0.1099E+02  0.4136E+03
  11.000  0.1101E+02  0.4137E+03
  11.010  0.1074E+02  0.4138E+03
  11.020  0.1058E+02  0.4139E+03
  11.030  0.1005E+02  0.4140E+03
  11.040  0.9012E+01  0.4141E+03
  11.050  0.8621E+01  0.4142E+03
  11.060  0.7809E+01  0.4143E+03
  11.070  0.6782E+01  0.4144E+03
  11.080  0.5894E+01  0.4144E+03
  11.090  0.5847E+01  0.4145E+03
  11.100  0.5691E+01  0.4146E+03
  11.110  0.4867E+01  0.4146E+03
  11.120  0.4823E+01  0.4147E+03
  11.130  0.4880E+01  0.4147E+03
  11.140  0.5507E+01  0.4148E+03
  11.150  0.5677E+01  0.4148E+03
  11.160  0.5726E+01  0.4149E+03
  11.170  0.5711E+01  0.4149E+03
  11.180  0.5654E+01  0.4150E+03
  11.190  0.5555E+01  0.4150E+03
  11.200  0.5480E+01  0.4151E+03
  11.210  0.5482E+01  0.4151E+03
  11.220  0.5889E+01  0.4152E+03
  11.230  0.5924E+01  0.4153E+03
  11.240  0.5960E+01  0.4153E+03
  11.250  0.6208E+01  0.4154E+03
  11.260  0.6677E+01  0.4154E+03
  11.270  0.6668E+01  0.4155E+03
  11.280  0.6807E+01  0.4156E+03
  11.290  0.8588E+01  0.4157E+03
  11.300  0.8100E+01  0.4157E+03
  11.310  0.8894E+01  0.4158E+03
  11.320  0.1093E+02  0.4159E+03
  11.330  0.5570E+01  0.4160E+03
  11.340  0.4583E+01  0.4161E+03
  11.350  0.4914E+01  0.4161E+03
  11.360  0.4780E+01  0.4162E+03
  11.370  0.4857E+01  0.4162E+03
  11.380  0.4938E+01  0.4163E+03
  11.390  0.5094E+01  0.4163E+03
  11.400  0.5595E+01  0.4164E+03
  11.410  0.6073E+01  0.4164E+03
  11.420  0.6691E+01  0.4165E+03
  11.430  0.7202E+01  0.4166E+03
  11.440  0.7923E+01  0.4166E+03
  11.450  0.9949E+01  0.4167E+03
  11.460  0.7315E+01  0.4168E+03
  11.470  0.6621E+01  0.4169E+03
  11.480  0.5524E+01  0.4170E+03
  11.490  0.5332E+01  0.4170E+03
  11.500  0.5787E+01  0.4171E+03
  11.510  0.5007E+01  0.4171E+03
  11.520  0.3167E+01  0.4172E+03
  11.530  0.3242E+01  0.4172E+03
  11.540  0.3319E+01  0.4172E+03
  11.550  0.3274E+01  0.4173E+03
  11.560  0.3174E+01  0.4173E+03
  11.570  0.3148E+01  0.4173E+03
  11.580  0.3178E+01  0.4174E+03
  11.590  0.3223E+01  0.4174E+03
  11.600  0.3266E+01  0.4174E+03
  11.610  0.3271E+01  0.4175E+03
  11.620  0.3276E+01  0.4175E+03
  11.630  0.3242E+01  0.4175E+03
  11.640  0.3290E+01  0.4176E+03
  11.650  0.3339E+01  0.4176E+03
  11.660  0.3407E+01  0.4176E+03
  11.670  0.3584E+01  0.4177E+03
  11.680  0.3770E+01  0.4177E+03
  11.690  0.3958E+01  0.4177E+03
  11.700  0.4146E+01  0.4178E+03
  11.710  0.4347E+01  0.4178E+03
  11.720  0.4622E+01  0.4179E+03
  11.730  0.4794E+01  0.4179E+03
  11.740  0.5866E+01  0.4180E+03
  11.750  0.6344E+01  0.4180E+03
  11.760  0.9684E+01  0.4181E+03
  11.770  0.6336E+01  0.4182E+03
  11.780  0.2472E+01  0.4182E+03
  11.790  0.2481E+01  0.4182E+03
  11.800  0.2492E+01  0.4183E+03
  11.810  0.2502E+01  0.4183E+03
  11.820  0.2749E+01  0.4183E+03
  11.830  0.2723E+01  0.4183E+03
  11.840  0.2913E+01  0.4184E+03
  11.850  0.2862E+01  0.4184E+03
  11.860  0.2810E+01  0.4184E+03
  11.870  0.2758E+01  0.4185E+03
  11.880  0.2590E+01  0.4185E+03
  11.890  0.2533E+01  0.4185E+03
  11.900  0.2481E+01  0.4185E+03
  11.910  0.5124E+01  0.4186E+03
  11.920  0.5430E+01  0.4186E+03
  11.930  0.5241E+01  0.4187E+03
  11.940  0.5588E+01  0.4188E+03
  11.950  0.5878E+01  0.4188E+03
  11.960  0.5775E+01  0.4189E+03
  11.970  0.5522E+01  0.4189E+03
  11.980  0.5513E+01  0.4190E+03
  11.990  0.5588E+01  0.4190E+03
  12.000  0.5815E+01  0.4191E+03
  12.010  0.6543E+01  0.4192E+03
  12.020  0.5416E+01  0.4192E+03
  12.030  0.5357E+01  0.4193E+03
  12.040  0.5637E+01  0.4193E+03
  12.050  0.6294E+01  0.4194E+03
  12.060  0.6106E+01  0.4194E+03
  12.070  0.5924E+01  0.4195E+03
  12.080  0.5698E+01  0.4196E+03
  12.090  0.5446E+01  0.4196E+03
  12.100  0.5162E+01  0.4197E+03
  12.110  0.4949E+01  0.4197E+03
  12.120  0.4780E+01  0.4198E+03
  12.130  0.4667E+01  0.4198E+03
  12.140  0.4958E+01  0.4199E+03
  12.150  0.5256E+01  0.4199E+03
  12.160  0.4982E+01  0.4200E+03
  12.170  0.4998E+01  0.4200E+03
  12.180  0.5096E+01  0.4201E+03
  12.190  0.5244E+01  0.4201E+03
  12.200  0.5372E+01  0.4202E+03
  12.210  0.5448E+01  0.4202E+03
  12.220  0.6919E+01  0.4203E+03
  12.230  0.5352E+01  0.4203E+03
  12.240  0.5274E+01  0.4204E+03
  12.250  0.5002E+01  0.4204E+03
  12.260  0.4863E+01  0.4205E+03
  12.270  0.4807E+01  0.4205E+03
  12.280  0.6448E+01  0.4206E+03
  12.290  0.4562E+01  0.4206E+03
  12.300  0.4699E+01  0.4207E+03
  12.310  0.5134E+01  0.4207E+03
  12.320  0.5531E+01  0.4208E+03
  12.330  0.5432E+01  0.4208E+03
  12.340  0.5520E+01  0.4209E+03
  12.350  0.5654E+01  0.4210E+03
  12.360  0.5325E+01  0.4210E+03
  12.370  0.5268E+01  0.4211E+03
  12.380  0.5877E+01  0.4211E+03
  12.390  0.7402E+01  0.4212E+03
  12.400  0.7241E+01  0.4213E+03
  12.410  0.6778E+01  0.4213E+03
  12.420  0.6740E+01  0.4214E+03
  12.430  0.6627E+01  0.4215E+03
  12.440  0.5812E+01  0.4215E+03
  12.450  0.5707E+01  0.4216E+03
  12.460  0.5737E+01  0.4217E+03
  12.470  0.5762E+01  0.4217E+03
  12.480  0.5814E+01  0.4218E+03
  12.490  0.5887E+01  0.4218E+03
  12.500  0.6985E+01  0.4219E+03
  12.510  0.1676E+02  0.4220E+03
  12.520  0.6529E+01  0.4221E+03
  12.530  0.6621E+01  0.4222E+03
  12.540  0.6481E+01  0.4222E+03
  12.550  0.6747E+01  0.4223E+03
  12.560  0.7019E+01  0.4224E+03
  12.570  0.6944E+01  0.4224E+03
  12.580  0.6277E+01  0.4225E+03
  12.590  0.5491E+01  0.4226E+03
  12.600  0.6237E+01  0.4226E+03
  12.610  0.6605E+01  0.4227E+03
  12.620  0.7049E+01  0.4227E+03
  12.630  0.6292E+01  0.4228E+03
  12.640  0.6233E+01  0.4229E+03
  12.650  0.6524E+01  0.4229E+03
  12.660  0.6873E+01  0.4230E+03
  12.670  0.6890E+01  0.4231E+03
  12.680  0.6668E+01  0.4231E+03
  12.690  0.6203E+01  0.4232E+03
  12.700  0.6063E+01  0.4233E+03
  12.710  0.6011E+01  0.4233E+03
  12.720  0.7356E+01  0.4234E+03
  12.730  0.8132E+01  0.4235E+03
  12.740  0.8094E+01  0.4236E+03
  12.750  0.7508E+01  0.4236E+03
  12.760  0.7702E+01  0.4237E+03
  12.770  0.7417E+01  0.4238E+03
  12.780  0.6882E+01  0.4239E+03
  12.790  0.6646E+01  0.4239E+03
  12.800  0.7081E+01  0.4240E+03
  12.810  0.7595E+01  0.4241E+03
  12.820  0.7503E+01  0.4241E+03
  12.830  0.8846E+01  0.4242E+03
  12.840  0.9473E+01  0.4243E+03
  12.850  0.9484E+01  0.4244E+03
  12.860  0.9013E+01  0.4245E+03
  12.870  0.8165E+01  0.4246E+03
  12.880  0.7839E+01  0.4247E+03
  12.890  0.7996E+01  0.4247E+03
  12.900  0.7819E+01  0.4248E+03
  12.910  0.7835E+01  0.4249E+03
  12.920  0.7545E+01  0.4250E+03
  12.930  0.7489E+01  0.4251E+03
  12.940  0.7280E+01  0.4251E+03
  12.950  0.7297E+01  0.4252E+03
  12.960  0.8125E+01  0.4253E+03
  12.970  0.1028E+02  0.4254E+03
  12.980  0.8130E+01  0.4255E+03
  12.990  0.8253E+01  0.4255E+03
  13.000  0.8186E+01  0.4256E+03
  13.010  0.7885E+01  0.4257E+03
  13.020  0.7899E+01  0.4258E+03
  13.030  0.7734E+01  0.4259E+03
  13.040  0.7563E+01  0.4259E+03
  13.050  0.6868E+01  0.4260E+03
  13.060  0.5712E+01  0.4261E+03
  13.070  0.5389E+01  0.4261E+03
  13.080  0.5515E+01  0.4262E+03
  13.090  0.6103E+01  0.4262E+03
  13.100  0.6892E+01  0.4263E+03
  13.110  0.7595E+01  0.4264E+03
  13.120  0.7717E+01  0.4265E+03
  13.130  0.6297E+01  0.4265E+03
  13.140  0.6078E+01  0.4266E+03
  13.150  0.6487E+01  0.4266E+03
  13.160  0.6678E+01  0.4267E+03
  13.170  0.6817E+01  0.4268E+03
  13.180  0.6959E+01  0.4268E+03
  13.190  0.6587E+01  0.4269E+03
  13.200  0.6539E+01  0.4270E+03
  13.210  0.6597E+01  0.4270E+03
  13.220  0.6735E+01  0.4271E+03
  13.230  0.6668E+01  0.4272E+03
  13.240  0.6902E+01  0.4272E+03
  13.250  0.7284E+01  0.4273E+03
  13.260  0.7789E+01  0.4274E+03
  13.270  0.8559E+01  0.4275E+03
  13.280  0.8883E+01  0.4276E+03
  13.290  0.8925E+01  0.4276E+03
  13.300  0.8717E+01  0.4277E+03
  13.310  0.8648E+01  0.4278E+03
  13.320  0.9258E+01  0.4279E+03
  13.330  0.9293E+01  0.4280E+03
  13.340  0.8461E+01  0.4281E+03
  13.350  0.7668E+01  0.4282E+03
  13.360  0.7593E+01  0.4283E+03
  13.370  0.7459E+01  0.4283E+03
  13.380  0.7659E+01  0.4284E+03
  13.390  0.7756E+01  0.4285E+03
  13.400  0.7740E+01  0.4286E+03
  13.410  0.7819E+01  0.4286E+03
  13.420  0.7848E+01  0.4287E+03
  13.430  0.8951E+01  0.4288E+03
  13.440  0.8354E+01  0.4289E+03
  13.450  0.8115E+01  0.4290E+03
  13.460  0.7306E+01  0.4290E+03
  13.470  0.7679E+01  0.4291E+03
  13.480  0.7827E+01  0.4292E+03
  13.490  0.7781E+01  0.4293E+03
  13.500  0.7446E+01  0.4294E+03
  13.510  0.6964E+01  0.4294E+03
  13.520  0.6849E+01  0.4295E+03
  13.530  0.7050E+01  0.4296E+03
  13.540  0.7107E+01  0.4296E+03
  13.550  0.7043E+01  0.4297E+03
  13.560  0.7660E+01  0.4298E+03
  13.570  0.6975E+01  0.4299E+03
  13.580  0.7177E+01  0.4299E+03
  13.590  0.7487E+01  0.4300E+03
  13.600  0.7836E+01  0.4301E+03
  13.610  0.8288E+01  0.4302E+03
  13.620  0.8876E+01  0.4303E+03
  13.630  0.8202E+01  0.4303E+03
  13.640  0.7737E+01  0.4304E+03
  13.650  0.6806E+01  0.4305E+03
  13.660  0.6715E+01  0.4306E+03
  13.670  0.6779E+01  0.4306E+03
  13.680  0.6698E+01  0.4307E+03
  13.690  0.6449E+01  0.4308E+03
  13.700  0.6362E+01  0.4308E+03
  13.710  0.6379E+01  0.4309E+03
  13.720  0.6494E+01  0.4310E+03
  13.730  0.6251E+01  0.4310E+03
  13.740  0.7831E+01  0.4311E+03
  13.750  0.8706E+01  0.4312E+03
  13.760  0.6596E+01  0.4313E+03
  13.770  0.6120E+01  0.4313E+03
  13.780  0.6451E+01  0.4314E+03
  13.790  0.8254E+01  0.4315E+03
  13.800  0.1030E+02  0.4316E+03
  13.810  0.7976E+01  0.4316E+03
  13.820  0.7708E+01  0.4317E+03
  13.830  0.7175E+01  0.4318E+03
  13.840  0.6821E+01  0.4319E+03
  13.850  0.6929E+01  0.4319E+03
  13.860  0.7504E+01  0.4320E+03
  13.870  0.8128E+01  0.4321E+03
  13.880  0.8845E+01  0.4322E+03
  13.890  0.9923E+01  0.4323E+03
  13.900  0.1151E+02  0.4324E+03
  13.910  0.9330E+01  0.4325E+03
  13.920  0.8953E+01  0.4326E+03
  13.930  0.8708E+01  0.4327E+03
  13.940  0.7806E+01  0.4327E+03
  13.950  0.6511E+01  0.4328E+03
  13.960  0.6306E+01  0.4329E+03
  13.970  0.6369E+01  0.4329E+03
  13.980  0.6369E+01  0.4330E+03
  13.990  0.6388E+01  0.4331E+03
  14.000  0.6430E+01  0.4331E+03
  14.010  0.6473E+01  0.4332E+03
  14.020  0.6631E+01  0.4333E+03
  14.030  0.6808E+01  0.4333E+03
  14.040  0.6990E+01  0.4334E+03
  14.050  0.7299E+01  0.4335E+03
  14.060  0.7679E+01  0.4335E+03
  14.070  0.8708E+01  0.4336E+03
  14.080  0.8985E+01  0.4337E+03
  14.090  0.9630E+01  0.4338E+03
  14.100  0.1133E+02  0.4339E+03
  14.110  0.1038E+02  0.4340E+03
  14.120  0.1039E+02  0.4341E+03
  14.130  0.9319E+01  0.4342E+03
  14.140  0.9398E+01  0.4343E+03
  14.150  0.8863E+01  0.4344E+03
  14.160  0.8460E+01  0.4345E+03
  14.170  0.8764E+01  0.4346E+03
  14.180  0.8045E+01  0.4347E+03
  14.190  0.8186E+01  0.4347E+03
  14.200  0.1081E+02  0.4348E+03
  14.210  0.9940E+01  0.4349E+03
  14.220  0.9666E+01  0.4350E+03
  14.230  0.1012E+02  0.4351E+03
  14.240  0.1095E+02  0.4352E+03
  14.250  0.1406E+02  0.4354E+03
  14.260  0.1058E+02  0.4355E+03
  14.270  0.8420E+01  0.4356E+03
  14.280  0.8378E+01  0.4357E+03
  14.290  0.8381E+01  0.4357E+03
  14.300  0.8932E+01  0.4358E+03
  14.310  0.8592E+01  0.4359E+03
  14.320  0.8444E+01  0.4360E+03
  14.330  0.8496E+01  0.4361E+03
  14.340  0.8679E+01  0.4362E+03
  14.350  0.8893E+01  0.4363E+03
  14.360  0.8548E+01  0.4364E+03
  14.370  0.8484E+01  0.4364E+03
  14.380  0.8635E+01  0.4365E+03
  14.390  0.8838E+01  0.4366E+03
  14.400  0.9243E+01  0.4367E+03
  14.410  0.9268E+01  0.4368E+03
  14.420  0.9607E+01  0.4369E+03
  14.430  0.1074E+02  0.4370E+03
  14.440  0.9962E+01  0.4371E+03
  14.450  0.9991E+01  0.4372E+03
  14.460  0.1004E+02  0.4373E+03
  14.470  0.1082E+02  0.4374E+03
  14.480  0.1178E+02  0.4375E+03
  14.490  0.1169E+02  0.4377E+03
  14.500  0.1140E+02  0.4378E+03
  14.510  0.1099E+02  0.4379E+03
  14.520  0.1061E+02  0.4380E+03
  14.530  0.1041E+02  0.4381E+03
  14.540  0.9635E+01  0.4382E+03
  14.550  0.9527E+01  0.4383E+03
  14.560  0.9574E+01  0.4384E+03
  14.570  0.9888E+01  0.4385E+03
  14.580  0.9858E+01  0.4386E+03
  14.590  0.1054E+02  0.4387E+03
  14.600  0.1106E+02  0.4388E+03
  14.610  0.1071E+02  0.4389E+03
  14.620  0.9698E+01  0.4390E+03
  14.630  0.9903E+01  0.4391E+03
  14.640  0.1057E+02  0.4392E+03
  14.650  0.1057E+02  0.4393E+03
  14.660  0.1084E+02  0.4394E+03
  14.670  0.1079E+02  0.4395E+03
  14.680  0.1083E+02  0.4396E+03
  14.690  0.1096E+02  0.4398E+03
  14.700  0.1131E+02  0.4399E+03
  14.710  0.1082E+02  0.4400E+03
  14.720  0.1136E+02  0.4401E+03
  14.730  0.1169E+02  0.4402E+03
  14.740  0.1189E+02  0.4403E+03
  14.750  0.1185E+02  0.4404E+03
  14.760  0.1201E+02  0.4406E+03
  14.770  0.1247E+02  0.4407E+03
  14.780  0.1161E+02  0.4408E+03
  14.790  0.1152E+02  0.4409E+03
  14.800  0.1084E+02  0.4410E+03
  14.810  0.1093E+02  0.4411E+03
  14.820  0.1110E+02  0.4412E+03
  14.830  0.1163E+02  0.4414E+03
  14.840  0.1130E+02  0.4415E+03
  14.850  0.1137E+02  0.4416E+03
  14.860  0.1021E+02  0.4417E+03
  14.870  0.1019E+02  0.4418E+03
  14.880  0.1035E+02  0.4419E+03
  14.890  0.1058E+02  0.4420E+03
  14.900  0.1095E+02  0.4421E+03
  14.910  0.1166E+02  0.4422E+03
  14.920  0.1202E+02  0.4423E+03
  14.930  0.1133E+02  0.4425E+03
  14.940  0.1088E+02  0.4426E+03
  14.950  0.1119E+02  0.4427E+03
  14.960  0.1159E+02  0.4428E+03
  14.970  0.1139E+02  0.4429E+03
  14.980  0.1149E+02  0.4430E+03
  14.990  0.1113E+02  0.4431E+03
  15.000  0.1081E+02  0.4432E+03
